%$Release 4.0
% Copyright (c) Copyright 2004 - 2006 - The General Hospital Corporation and
% President and Fellows of Harvard University.
% 
% All rights reserved.
% 
% Redistribution and use in source and binary forms, with or without
% modification, are permitted provided that the following conditions are met:
% 
% *       Redistributions of source code must retain the above copyright
% notice, this list of conditions and the following disclaimer.
% *       Redistributions in binary form must reproduce the above copyright
% notice, this list of conditions and the following disclaimer in the
% documentation and/or other materials provided with the distribution.
% *       Neither the name of The General Hospital Corporation and Harvard
% University nor the names of its contributors may be used to endorse or
% promote products derived from this software without specific prior written
% permission.
% 
% The Software has been designed for research purposes only and has not been
% reviewed or approved by the Food and Drug Administration or by any other
% agency.  YOU ACKNOWLEDGE AND AGREE THAT CLINICAL APPLICATIONS ARE NEITHER
% RECOMMENDED NOR ADVISED.
% 
% THIS SOFTWARE IS PROVIDED BY THE COPYRIGHT HOLDERS AND CONTRIBUTORS "AS IS"
% AND ANY EXPRESS OR IMPLIED WARRANTIES, INCLUDING, BUT NOT LIMITED TO, THE
% IMPLIED WARRANTIES OF MERCHANTABILITY AND FITNESS FOR A PARTICULAR PURPOSE
% ARE DISCLAIMED. IN NO EVENT SHALL THE COPYRIGHT OWNER OR CONTRIBUTORS BE
% LIABLE FOR ANY DIRECT, INDIRECT, INCIDENTAL, SPECIAL, EXEMPLARY, OR
% CONSEQUENTIAL DAMAGES (INCLUDING, BUT NOT LIMITED TO, PROCUREMENT OF
% SUBSTITUTE GOODS OR SERVICES; LOSS OF USE, DATA, OR PROFITS; OR BUSINESS
% INTERRUPTION) HOWEVER CAUSED AND ON ANY THEORY OF LIABILITY, WHETHER IN
% CONTRACT, STRICT LIABILITY, OR TORT (INCLUDING NEGLIGENCE OR OTHERWISE)
% ARISING IN ANY WAY OUT OF THE USE OF THIS SOFTWARE, EVEN IF ADVISED OF THE
% POSSIBILITY OF SUCH DAMAGE.


function [exs,varargout] = GetExtinctions( lambda,WhichSpectrum )
%
% GetExtinctions( lambda )
%
%       Returns the extinction coefficients for
%         [HbO Hb H2O lipid aa3]
%       for the specified wavelengths.
%
%	These values for the molar extinction coefficient e
% 	in [cm-1/(moles/liter)] were compiled by Scott Prahl
%	(prahl@ece.ogi.edu) using data from
%	W. B. Gratzer, Med. Res. Council Labs, Holly Hill, London
%	N. Kollias, Wellman Laboratories, Harvard Medical School, Boston
%	To convert this data to absorbance A, multiply by the
%	molar concentration and the pathlength. For example, if x is the
%	number of grams per liter and a 1 cm cuvette is being used,
%	then the absorbance is given by
%
%        (e) [(1/cm)/(moles/liter)] (x) [g/liter] (1) [cm]
%  A =  ---------------------------------------------------
%                          66,500 [g/mole]
%
%	using 66,500 as the gram molecular weight of hemoglobin.
%	To convert this data to absorption coefficient in (cm-1), multiply
%	by the molar concentration and 2.303,
%
%	µa = (2.303) e (x g/liter)/(66,500 g Hb/mole)
%	where x is the number of grams per liter. A typical value of x
%	for whole blood is x=150 g Hb/liter.
%
%
%%%%%%%%%%%%%%%%%%%%%%%%%%%%%%%%%%%%%%%%%%%%%%%%%%%%%%%%%%%%%%%%%%%%%%%%%%%%%%%

%  $Author: dboasg $
%
%  $Date: 2009/01/02 16:55:16 $
%
%  $Revision: 1.1 $
%
%  $Log: GetExtinctions.m,v $
%  Revision 1.1  2009/01/02 16:55:16  dboasg
%  initial
%
%  Revision 1.2  2006/12/11 18:40:58  dboasg
%  updated copy right info
%
%  Revision 1.1  2006/09/21 17:17:29  thuppert
%  initial version
%
%  Revision 1.2  2005/07/29 17:12:08  thuppert
%  Added MGH copyright header to all *.m files!
%
%  Revision 1.1.1.1  2005/07/01 14:25:11  dboas
%  Initial import of homer version 4.0
%
%  Revision 1.2  2003/08/29 18:49:59  bc
%  Updated chimeric version (dboas + thuppert)
%
%  Revision 1.4  2002/02/18 20:20:02  dboas
%  Corrected the units of lipid absorption to be per cm rather than per mm.
%  Also, now interpolate for wavelengths between those specified.
%
%  Revision 1.3  2001/04/27 20:46:53  dboas
%  Maria Angela Updated the extinction coefficients for Hb and HbO
%
%  Revision 1.2  2000/09/06 12:10:12  dboas
%  Added extinction coefficients for lipid and aa3.
%
%  Revision 1.1.1.1  2000/05/25 13:14:47  dboas
%  initial
%
%  Revision 1.2  2000/01/10 00:14:14  dboas
%  Storing the source and detector lists for use by other functions
%
%  Revision 1.1  1999/11/18 14:21:00  tgaudett
%  Initial Routines for Chromophores
%  HB, HbO, H2O
%
%
%%%%%%%%%%%%%%%%%%%%%%%%%%%%%%%%%%%%%%%%%%%%%%%%%%%%%%%%%%%%%%%%%%%%%%%%%%%%%%%
%%%%%%%%%%%%%%%%%%%%%%%%%%%%%%%%%%%%%%%%%%%%%%%%%%%%%%%%%%%%%%%%%%%%%%%%%%%%%%%

lambda = double(lambda);  % Cast to double

num_lambda = length(lambda);


if ~exist('WhichSpectrum')
    WhichSpectrum=0;
end


switch(WhichSpectrum)

    %**************************************************************************
    %**************************************************************************
    %**************************************************************************
    %**************************************************************************

    case 0
        Citation=sprintf('%s\n%s','Wray, S., Cope, M., Delpy, D., Wyatt, J., Reynolds, E. (1988). Characterization of the near infrared absorption spectra of cytochrome aa3 and haemoglobin for the non-invasive monitoring of cerebral oxygenation Biochimica et Biophysica Acta (BBA) - Bioenergetics  933(1), 184-192. https://dx.doi.org/10.1016/0005-2728(88)90069-2');

        % These values for the molar extinction coefficient e in
        % [cm-1/(moles/liter)] come from
        %
        % Wray, S., Cope, M., Delpy, D., Wyatt, J., Reynolds, E. (1988). 
        % Characterization of the near infrared absorption spectra of cytochrome aa3 and 
        % haemoglobin for the non-invasive monitoring of cerebral oxygenation Biochimica et Biophysica Acta (BBA) - 
        % Bioenergetics  933(1), 184-192. https://dx.doi.org/10.1016/0005-2728(88)90069-2
        %
        % To convert this data to absorbance A, multiply by the molar concentration and the pathlength. For example, if x is the number of grams per liter and a 1 cm cuvette is being used, then the absorbance is given by
        %
        %        (e) [(1/cm)/(moles/liter)] (x) [g/liter] (1) [cm]
        %  A =  ---------------------------------------------------
        %                          66,500 [g/mole]
        %
        % using 66,500 as the gram molecular weight of hemoglobin.
        % To convert this data to absorption coefficient in (cm-1), multiply by the molar concentration and 2.303,
        %
        % µa = (2.303) e (x g/liter)/(66,500 g Hb/mole)
        % where x is the number of grams per liter. A typical value of x for whole blood is x=150 g Hb/liter.

        vLambdaHbOHb = [
            650.0	506.0	3743.0;
            652.0	488.0	3677.0;
            654.0	474.0	3612.0;
            656.0	464.0	3548.0;
            658.0	454.3	3491.3;
            660.0	445.0	3442.0;
            662.0	438.3	3364.7;
            664.0	433.8	3292.8;
            666.0	431.3	3226.3;
            668.0	429.0	3133.0;
            670.0	427.0	3013.0;
            672.0	426.5	2946.0;
            674.0	426.0	2879.0;
            676.0	424.0	2821.7;
            678.0	423.0	2732.3;
            680.0	423.0	2610.8;
            682.0	422.0	2497.3;
            684.0	420.0	2392.0;
            686.0	418.0	2292.7;
            688.0	416.5	2209.3;
            690.0	415.5	2141.8;
            692.0	415.0	2068.7;
            694.0	415.0	1990.0;
            696.0	415.5	1938.5;
            698.0	416.0	1887.0;
            700.0	419.3	1827.7;
            702.0	422.5	1778.5;
            704.0	425.5	1739.5;
            706.0	429.7	1695.7;
            708.0	435.0	1647.0;
            710.0	441.0	1601.7;
            712.0	446.5	1562.5;
            714.0	451.5	1529.5;
            716.0	458.0	1492.0;
            718.0	466.0	1450.0;
            720.0	472.7	1411.3;
            722.0	479.5	1380.0;
            724.0	486.5	1356.0;
            726.0	494.3	1331.7;
            728.0	503.0	1307.0;
            730.0	510.0	1296.5;
            732.0	517.0	1286.0;
            734.0	521.0	1286.0;
            736.0	530.7	1293.0;
            738.0	546.0	1307.0;
            740.0	553.5	1328.0;
            742.0	561.0	1349.0;
            744.0	571.0	1384.3;
            746.0	581.3	1431.3;
            748.0	592.0	1490.0;
            750.0	600.0	1532.0;
            752.0	608.0	1574.0;
            754.0	618.7	1620.7;
            756.0	629.7	1655.3;
            758.0	641.0	1678.0;
            760.0	645.5	1669.0;
            762.0	650.0	1660.0;
            764.0	666.7	1613.3;
            766.0	681.0	1555.0;
            768.0	693.0	1485.0;
            770.0	701.5	1425.0;
            772.0	710.0	1365.0;
            774.0	722.0	1288.3;
            776.0	733.7	1216.3;
            778.0	745.0	1149.0;
            780.0	754.0	1107.5;
            782.0	763.0	1066.0;
            784.0	775.0	1021.3;
            786.0	787.0	972.0;
            788.0	799.0	918.0;
            790.0	808.0	913.0;
            792.0	817.0	908.0;
            794.0	829.0	887.3;
            796.0	840.7	868.7;
            798.0	852.0	852.0;
            800.0	863.3	838.7;
            802.0	873.3	828.0;
            804.0	881.8	820.0;
            806.0	891.7	812.0;
            808.0	903.0	804.0;
            810.0	914.3	798.7;
            812.0	924.7	793.7;
            814.0	934.0	789.0;
            816.0	943.0	787.0;
            818.0	952.0	785.0;
            820.0	962.7	783.0;
            822.0	973.0	781.0;
            824.0	983.0	779.0;
            826.0	990.5	778.5;
            828.0	998.0	778.0;
            830.0	1008.0	778.0;
            832.0	1018.0	777.7;
            834.0	1028.0	777.0;
            836.0	1038.0	777.0;
            838.0	1047.7	777.0;
            840.0	1057.0	777.0;
            842.0	1063.5	777.5;
            844.0	1070.0	778.0;
            846.0	1079.3	779.3;
            848.0	1088.3	780.3;
            850.0	1097.0	781.0;
            852.0	1105.7	783.0;
            854.0	1113.0	785.0;
            856.0	1119.0	787.0;
            858.0	1126.0	789.3;
            860.0	1134.0	792.0;
            862.0	1142.0	795.3;
            864.0	1149.7	799.0;
            866.0	1157.0	803.0;
            868.0	1163.7	807.7;
            870.0	1170.3	812.3;
            872.0	1177.0	817.0;
            874.0	1182.0	820.5;
            876.0	1187.0	824.0;
            878.0	1193.0	830.0;
            880.0	1198.7	835.7;
            882.0	1204.0	841.0;
            884.0	1209.3	847.0;
            886.0	1214.3	852.7;
            888.0	1219.0	858.0;
            890.0	1223.7	863.3;
            892.0	1227.5	867.8;
            894.0	1230.5	871.3;
            896.0	1234.0	875.3;
            898.0	1238.0	880.0;
            900.0	1241.3	883.3 ];


        vLambdaHbOHb(:,2) = vLambdaHbOHb(:,2) * 2.303;
        vLambdaHbOHb(:,3) = vLambdaHbOHb(:,3) * 2.303;

        %**************************************************************************
        %**************************************************************************
        %**************************************************************************
        %**************************************************************************
    
    case 1
        Citation=sprintf('%s\n%s','W. B. Gratzer, Med. Res. Council Labs, Holly Hill,London',...
            'N. Kollias, Wellman Laboratories, Harvard Medical School, Boston');

        %These values for the molar extinction coefficient e in [cm-1/(moles/liter)] were compiled by Scott Prahl (prahl@ece.ogi.edu) using data from
        %
        %W. B. Gratzer, Med. Res. Council Labs, Holly Hill, London
        %N. Kollias, Wellman Laboratories, Harvard Medical School, Boston
        %To convert this data to absorbance A, multiply by the molar concentration and the pathlength. For example, if x is the number of grams per liter and a 1 cm cuvette is being used, then the absorbance is given by
        %
        %        (e) [(1/cm)/(moles/liter)] (x) [g/liter] (1) [cm]
        %  A =  ---------------------------------------------------
        %                          66,500 [g/mole]
        %
        %using 66,500 as the gram molecular weight of hemoglobin.
        %To convert this data to absorption coefficient in (cm-1), multiply by the molar concentration and 2.303,
        %
        %µa = (2.303) e (x g/liter)/(66,500 g Hb/mole)
        %where x is the number of grams per liter. A typical value of x for whole blood is x=150 g Hb/liter.

        vLambdaHbOHb = [
            250	106112	112736;
            252	105552	112736;
            254	107660	112736;
            256	109788	113824;
            258	112944	115040;
            260	116376	116296;
            262	120188	117564;
            264	124412	118876;
            266	128696	120208;
            268	133064	121544;
            270	136068	122880;
            272	137232	123096;
            274	138408	121952;
            276	137424	120808;
            278	135820	119840;
            280	131936	118872;
            282	127720	117628;
            284	122280	114820;
            286	116508	112008;
            288	108484	107140;
            290	104752	98364;
            292	98936	91636;
            294	88136	85820;
            296	79316	77100;
            298	70884	69444;
            300	65972	64440;
            302	63208	61300;
            304	61952	58828;
            306	62352	56908;
            308	62856	57620;
            310	63352	59156;
            312	65972	62248;
            314	69016	65344;
            316	72404	68312;
            318	75536	71208;
            320	78752	74508;
            322	82256	78284;
            324	85972	82060;
            326	89796	85592;
            328	93768	88516;
            330	97512	90856;
            332	100964	93192;
            334	103504	95532;
            336	104968	99792;
            338	106452	104476;
            340	107884	108472;
            342	109060	110996;
            344	110092	113524;
            346	109032	116052;
            348	107984	118752;
            350	106576	122092;
            352	105040	125436;
            354	103696	128776;
            356	101568	132120;
            358	97828	133632;
            360	94744	134940;
            362	92248	136044;
            364	89836	136972;
            366	88484	137900;
            368	87512	138856;
            370	88176	139968;
            372	91592	141084;
            374	95140	142196;
            376	98936	143312;
            378	103432	144424;
            380	109564	145232;
            382	116968	145232;
            384	125420	148668;
            386	135132	153908;
            388	148100	159544;
            390	167748	167780;
            392	189740	180004;
            394	212060	191540;
            396	231612	202124;
            398	248404	212712;
            400	266232	223296;
            402	284224	236188;
            404	308716	253368;
            406	354208	270548;
            408	422320	287356;
            410	466840	303956;
            412	500200	321344;
            414	524280	342596;
            416	521880	363848;
            418	515520	385680;
            420	480360	407560;
            422	431880	429880;
            424	376236	461200;
            426	326032	481840;
            428	283112	500840;
            430	246072	528600;
            432	214120	552160;
            434	165332	552160;
            436	132820	547040;
            438	119140	501560;
            440	102580	413280;
            442	92780	363240;
            444	81444	282724;
            446	76324	237224;
            448	67044	173320;
            450	62816	103292;
            452	58864	62640;
            454	53552	36170;
            456	49496	30698.8;
            458	47496	25886.4;
            460	44480	23388.8;
            462	41320	20891.2;
            464	39807.2	19260.8;
            466	37073.2	18142.4;
            468	34870.8	17025.6;
            470	33209.2	16156.4;
            472	31620	15310;
            474	30113.6	15048.4;
            476	28850.8	14792.8;
            478	27718	14657.2;
            480	26629.2	14550;
            482	25701.6	14881.2;
            484	25180.4	15212.4;
            486	24669.6	15543.6;
            488	24174.8	15898;
            490	23684.4	16684;
            492	23086.8	17469.6;
            494	22457.6	18255.6;
            496	21850.4	19041.2;
            498	21260	19891.2;
            500	20932.8	20862;
            502	20596.4	21832.8;
            504	20418	22803.6;
            506	19946	23774.4;
            508	19996	24745.2;
            510	20035.2	25773.6;
            512	20150.4	26936.8;
            514	20429.2	28100;
            516	21001.6	29263.2;
            518	22509.6	30426.4;
            520	24202.4	31589.6;
            522	26450.4	32851.2;
            524	29269.2	34397.6;
            526	32496.4	35944;
            528	35990	37490;
            530	39956.8	39036.4;
            532	43876	40584;
            534	46924	42088;
            536	49752	43592;
            538	51712	45092;
            540	53236	46592;
            542	53292	48148;
            544	52096	49708;
            546	49868	51268;
            548	46660	52496;
            550	43016	53412;
            552	39675.2	54080;
            554	36815.2	54520;
            556	34476.8	54540;
            558	33456	54164;
            560	32613.2	53788;
            562	32620	52276;
            564	33915.6	50572;
            566	36495.2	48828;
            568	40172	46948;
            570	44496	45072;
            572	49172	43340;
            574	53308	41716;
            576	55540	40092;
            578	54728	38467.6;
            580	50104	37020;
            582	43304	35676.4;
            584	34639.6	34332.8;
            586	26600.4	32851.6;
            588	19763.2	31075.2;
            590	14400.8	28324.4;
            592	10468.4	25470;
            594	7678.8	22574.8;
            596	5683.6	19800;
            598	4504.4	17058.4;
            600	3200	14677.2;
            602	2664	13622.4;
            604	2128	12567.6;
            606	1789.2	11513.2;
            608	1647.6	10477.6;
            610	1506	9443.6;
            612	1364.4	8591.2;
            614	1222.8	7762;
            616	1110	7344.8;
            618	1026	6927.2;
            620	942	6509.6;
            622	858	6193.2;
            624	774	5906.8;
            626	707.6	5620;
            628	658.8	5366.8;
            630	610	5148.8;
            632	561.2	4930.8;
            634	512.4	4730.8;
            636	478.8	4602.4;
            638	460.4	4473.6;
            640	442	4345.2;
            642	423.6	4216.8;
            644	405.2	4088.4;
            646	390.4	3965.08;
            648	379.2	3857.6;
            650	368	3750.12;
            652	356.8	3642.64;
            654	345.6	3535.16;
            656	335.2	3427.68;
            658	325.6	3320.2;
            660	319.6	3226.56;
            662	314	3140.28;
            664	308.4	3053.96;
            666	302.8	2967.68;
            668	298	2881.4;
            670	294	2795.12;
            672	290	2708.84;
            674	285.6	2627.64;
            676	282	2554.4;
            678	279.2	2481.16;
            680	277.6	2407.92;
            682	276	2334.68;
            684	274.4	2261.48;
            686	272.8	2188.24;
            688	274.4	2115;
            690	276	2051.96;
            692	277.6	2000.48;
            694	279.2	1949.04;
            696	282	1897.56;
            698	286	1846.08;
            700	290	1794.28;
            702	294	1741;
            704	298	1687.76;
            706	302.8	1634.48;
            708	308.4	1583.52;
            710	314	1540.48;
            712	319.6	1497.4;
            714	325.2	1454.36;
            716	332	1411.32;
            718	340	1368.28;
            720	348	1325.88;
            722	356	1285.16;
            724	364	1244.44;
            726	372.4	1203.68;
            728	381.2	1152.8;
            730	390	1102.2;
            732	398.8	1102.2;
            734	407.6	1102.2;
            736	418.8	1101.76;
            738	432.4	1100.48;
            740	446	1115.88;
            742	459.6	1161.64;
            744	473.2	1207.4;
            746	487.6	1266.04;
            748	502.8	1333.24;
            750	518	1405.24;
            752	533.2	1515.32;
            754	548.4	1541.76;
            756	562	1560.48;
            758	574	1560.48;
            760	586	1548.52;
            762	598	1508.44;
            764	610	1459.56;
            766	622.8	1410.52;
            768	636.4	1361.32;
            770	650	1311.88;
            772	663.6	1262.44;
            774	677.2	1213;
            776	689.2	1163.56;
            778	699.6	1114.8;
            780	710	1075.44;
            782	720.4	1036.08;
            784	730.8	996.72;
            786	740	957.36;
            788	748	921.8;
            790	756	890.8;
            792	764	859.8;
            794	772	828.8;
            796	786.4	802.96;
            798	807.2	782.36;
            800	816	761.72;
            802	828	743.84;
            804	836	737.08;
            806	844	730.28;
            808	856	723.52;
            810	864	717.08;
            812	872	711.84;
            814	880	706.6;
            816	887.2	701.32;
            818	901.6	696.08;
            820	916	693.76;
            822	930.4	693.6;
            824	944.8	693.48;
            826	956.4	693.32;
            828	965.2	693.2;
            830	974	693.04;
            832	982.8	692.92;
            834	991.6	692.76;
            836	1001.2	692.64;
            838	1011.6	692.48;
            840	1022	692.36;
            842	1032.4	692.2;
            844	1042.8	691.96;
            846	1050	691.76;
            848	1054	691.52;
            850	1058	691.32;
            852	1062	691.08;
            854	1066	690.88;
            856	1072.8	690.64;
            858	1082.4	692.44;
            860	1092	694.32;
            862	1101.6	696.2;
            864	1111.2	698.04;
            866	1118.4	699.92;
            868	1123.2	701.8;
            870	1128	705.84;
            872	1132.8	709.96;
            874	1137.6	714.08;
            876	1142.8	718.2;
            878	1148.4	722.32;
            880	1154	726.44;
            882	1159.6	729.84;
            884	1165.2	733.2;
            886	1170	736.6;
            888	1174	739.96;
            890	1178	743.6;
            892	1182	747.24;
            894	1186	750.88;
            896	1190	754.52;
            898	1194	758.16;
            900	1198	761.84;
            902	1202	765.04;
            904	1206	767.44;
            906	1209.2	769.8;
            908	1211.6	772.16;
            910	1214	774.56;
            912	1216.4	776.92;
            914	1218.8	778.4;
            916	1220.8	778.04;
            918	1222.4	777.72;
            920	1224	777.36;
            922	1225.6	777.04;
            924	1227.2	776.64;
            926	1226.8	772.36;
            928	1224.4	768.08;
            930	1222	763.84;
            932	1219.6	752.28;
            934	1217.2	737.56;
            936	1215.6	722.88;
            938	1214.8	708.16;
            940	1214	693.44;
            942	1213.2	678.72;
            944	1212.4	660.52;
            946	1210.4	641.08;
            948	1207.2	621.64;
            950	1204	602.24;
            952	1200.8	583.4;
            954	1197.6	568.92;
            956	1194	554.48;
            958	1190	540.04;
            960	1186	525.56;
            962	1182	511.12;
            964	1178	495.36;
            966	1173.2	473.32;
            968	1167.6	451.32;
            970	1162	429.32;
            972	1156.4	415.28;
            974	1150.8	402.28;
            976	1144	389.288;
            978	1136	374.944;
            980	1128	359.656;
            982	1120	344.372;
            984	1112	329.084;
            986	1102.4	313.796;
            988	1091.2	298.508;
            990	1080	283.22;
            992	1068.8	267.932;
            994	1057.6	252.648;
            996	1046.4	237.36;
            998	1035.2	222.072;
            1000	1024	206.784  ];


        vLambdaHbOHb(:,2) = vLambdaHbOHb(:,2) * 2.303;
        vLambdaHbOHb(:,3) = vLambdaHbOHb(:,3) * 2.303;

        %**************************************************************************
        %**************************************************************************
        %**************************************************************************
        %**************************************************************************

    case 2

        Citation=sprintf('%s\n%s','J.M. Schmitt, "Optical Measurement of Blood Oxygenation by Implantable Telemetry," Technical Report G558-15, Stanford."',...
            'M.K. Moaveni, "A Multiple Scattering Field Theory Applied to Whole Blood," Ph.D. dissertation, Dept. of Electrical Engineering, University of Washington, 1970');

        % These values for the molar extinction coefficient e in [cm-1/(moles/liter)] were compiled by Scott Prahl (prahl@ece.ogi.edu) using data from
        %
        % J.M. Schmitt, "Optical Measurement of Blood Oxygenation by Implantable Telemetry," Technical Report G558-15, Stanford."
        % M.K. Moaveni, "A Multiple Scattering Field Theory Applied to Whole Blood," Ph.D. dissertation, Dept. of Electrical Engineering, University of Washington, 1970.
        % To convert this data to absorbance A, multiply by the molar concentration and the pathlength. For example, if x is the number of grams per liter and a 1 cm cuvette is being used, then the absorbance is given by
        %
        %         (e) [(1/cm)/(moles/liter)] (x) [g/liter] (1) [cm]
        %   A =  ---------------------------------------------------
        %                           66,500 [g/mole]
        %
        % using 66,500 as the gram molecular weight of hemoglobin.
        % To convert this data to absorption coefficient in (cm-1), multiply by the molar concentration and 2.303,
        %
        % µa = (2.303) e (x g/liter)/(66,500 g Hb/mole)

        vLambdaHbOHb = [ 630 680	4280;
            640	440	3640;
            650	380	3420;
            660	320	3200;
            670	320	3080;
            680	320	2960;
            690	280	2560;
            700	320	2160;
            710	340	1840;
            720	360	1520;
            730	400	1500;
            740	440	1520;
            750	520	1620;
            760	600	1720;
            770	660	1420;
            780	720	1120;
            790	760	1020;
            800	800	920;
            810	860	880;
            820	920	840;
            830	980	840;
            840	1040 840;
            850	1060 800;
            860	1080 840;
            870	1120 840;
            880	1160 840;
            890	1180 860;
            900	1200 880;
            910	1220 920;
            920	1240 880;
            930	1240 800;
            940	1200 800;
            950	1200 720	];


        vLambdaHbOHb(:,2) = vLambdaHbOHb(:,2) * 2.303;
        vLambdaHbOHb(:,3) = vLambdaHbOHb(:,3) * 2.303;
        
        %**************************************************************************
        %**************************************************************************
        %**************************************************************************
        %******************************************************************
        

    case 3

        Citation=sprintf('%s','S. Takatani and M. D. Graham, "Theoretical analysis of diffuse reflectance from a two-layer tissue model," IEEE Trans. Biomed. Eng., BME-26, 656--664, (1987). ');

        %         These values for the molar extinction coefficient e in [cm-1/(moles/liter)] were compiled by Scott Prahl (prahl@ece.ogi.edu) using data from
        %
        % S. Takatani and M. D. Graham, "Theoretical analysis of diffuse reflectance from a two-layer tissue model," IEEE Trans. Biomed. Eng., BME-26, 656--664, (1987).
        % To convert this data to absorbance A, multiply by the molar concentration and the pathlength. For example, if x is the number of grams per liter and a 1 cm cuvette is being used, then the absorbance is given by
        %
        %         (e) [(1/cm)/(moles/liter)] (x) [g/liter] (1) [cm]
        %   A =  ---------------------------------------------------
        %                           66,500 [g/mole]
        %
        % using 66,500 as the gram molecular weight of hemoglobin.
        % To convert this data to absorption coefficient in (cm-1), multiply by the molar concentration and 2.303,
        %
        % µa = (2.303) e (x g/liter)/(66,500 g Hb/mole)
        % where x is the number of grams per liter. A typical value of x for whole blood is x=150 g Hb/liter.

        vLambdaHbOHb = [450	68000	58000;
            460	45040	20600;
            480	27360	13360;
            500	20200	16360;
            507	19240	19240;
            510	19040	20000;
            520	23520	25080;
            522	25680	25680;
            540	57080	41120;
            542	57480	44000;
            549	49840	49840;
            555	36000	52160;
            560	33880	50160;
            569	45080	45080;
            577	61480	36800;
            579	54920	35440;
            586	28920	28920;
            600	3200	14600;
            605	1860	9496;
            615	1152	5776;
            625	732	4400;
            635	488	3796;
            645	396	3436;
            655	340	3244;
            665	292	3156;
            675	288	3028;
            685	272	2796;
            695	280	2424;
            705	300	1988;
            715	328	1628;
            725	368	1464;
            735	412	1464;
            745	480	1616;
            755	556	1756;
            765	616	1640;
            775	684	1340;
            785	736	1040;
            795	776	964;
            805	880	896;
            815	880	880;
            825	952	832;
            835	996	820;
            845	1048	820;
            855	1068	820;
            865	1116	820;
            875	1140	848;
            885	1168	832;
            895	1188	884;
            905	1208	896;
            915	1220	924;
            925	1228	860;
            935	1216	848;
            945	1212	756;
            955	1196	704;
            965	1176	616;
            975	1148	552;
            985	1108	424;
            995	1052	372];

        vLambdaHbOHb(:,2) = vLambdaHbOHb(:,2) * 2.303;
        vLambdaHbOHb(:,3) = vLambdaHbOHb(:,3) * 2.303;









end

%
% ABSORPTION SPECTRUMOF H20
% FROM G. M. Hale and M. R. Querry, "Optical constants of water in the 200nm to
% 200µm wavelength region," Appl. Opt., 12, 555--563, (1973).
%
% ON THE WEB AT
% http://omlc.ogi.edu/spectra/water/abs/index.html
%

vLambdaH2O = [
    200.00	0.069000;
    225.00	0.027400;
    250.00	0.016800;
    275.00	0.010700;
    300.00	0.0067000;
    325.00	0.0041800;
    350.00	0.0023300;
    375.00	0.0011700;
    400.00	0.00058000;
    425.00	0.00038000;
    450.00	0.00028000;
    475.00	0.00024700;
    500.00	0.00025000;
    525.00	0.00032000;
    550.00	0.00045000;
    575.00	0.00079000;
    600.00	0.0023000;
    625.00	0.0028000;
    650.00	0.0032000;
    675.00	0.0041500;
    700.00	0.0060000;
    725.00	0.015900;
    750.00	0.026000;
    775.00	0.024000;
    800.00	0.020000;
    810.00	0.019858;
    820.00	0.023907;
    825.00	0.028000;
    830.00	0.029069;
    840.00	0.034707;
    850.00	0.043000;
    860.00	0.046759;
    870.00	0.051999;
    875.00	0.056000;
    880.00	0.055978;
    890.00	0.060432;
    900.00	0.068000;
    910.00	0.072913;
    920.00	0.10927;
    925.00	0.14400;
    930.00	0.17296;
    940.00	0.26737;
    950.00	0.39000;
    960.00	0.42000;
    970.00	0.45000;
    975.00	0.45000;
    980.00	0.43000;
    990.00	0.41000;
    1000.0	0.36000];

%
% Extinction coefficient for lipid.
% I got this from Brian Pogue who got this from Matcher and Cope (DAB)
% In units of per mm and convert to per cm.
%
vLambdaLipid = [
    650	0.000080;
    652	0.000080;
    654	0.000080;
    656	0.000080;
    658	0.000080;
    660	0.000080;
    662	0.000080;
    664	0.000080;
    666	0.000080;
    668	0.000080;
    670	0.000080;
    672	0.000080;
    674	0.000080;
    676	0.000080;
    678	0.000080;
    680	0.000080;
    682	0.000080;
    684	0.000080;
    686	0.000080;
    688	0.000080;
    690	0.000080;
    692	0.000080;
    694	0.000080;
    696	0.000080;
    698	0.000080;
    700	0.000080;
    702	0.000080;
    704	0.000080;
    706	0.000080;
    708	0.000080;
    710	0.000080;
    712	0.000080;
    714	0.000080;
    716	0.000080;
    718	0.000080;
    720	0.000096;
    722	0.000101;
    724	0.000096;
    726	0.000100;
    728	0.000090;
    730	0.000089;
    732	0.000093;
    734	0.000105;
    736	0.000123;
    738	0.000148;
    740	0.000179;
    742	0.000214;
    744	0.000254;
    746	0.000296;
    748	0.000341;
    750	0.000385;
    752	0.000426;
    754	0.000462;
    756	0.000491;
    758	0.000510;
    760	0.000515;
    762	0.000498;
    764	0.000458;
    766	0.000399;
    768	0.000333;
    770	0.000267;
    772	0.000206;
    774	0.000155;
    776	0.000106;
    778	0.000063;
    780	0.000033;
    782	0.000021;
    784	0.000023;
    786	0.000029;
    788	0.000027;
    790	0.000017;
    792	0.000006;
    794	0.000000;
    796	0.000002;
    798	0.000009;
    800	0.000021;
    802	0.000037;
    804	0.000055;
    806	0.000073;
    808	0.000091;
    810	0.000109;
    812	0.000128;
    814	0.000146;
    816	0.000163;
    818	0.000178;
    820	0.000193;
    822	0.000205;
    824	0.000214;
    826	0.000219;
    828	0.000221;
    830	0.000219;
    832	0.000213;
    834	0.000205;
    836	0.000193;
    838	0.000180;
    840	0.000167;
    842	0.000155;
    844	0.000145;
    846	0.000138;
    848	0.000135;
    852	0.000130;
    854	0.000130;
    856	0.000137;
    858	0.000153;
    860	0.000179;
    862	0.000216;
    864	0.000265;
    866	0.000329;
    868	0.000408;
    870	0.000505;
    872	0.000618;
    874	0.000758;
    876	0.000919;
    878	0.001103;
    880	0.001314;
    882	0.001552;
    884	0.001809;
    886	0.002082;
    888	0.002365;
    890	0.002653;
    892	0.002939;
    894	0.003224;
    896	0.003521;
    898	0.003833;
    900	0.004168;
    902	0.004545;
    904	0.004976;
    906	0.005451;
    908	0.005969;
    910	0.006522;
    912	0.007106;
    914	0.007686;
    916	0.008235;
    918	0.008744;
    920	0.009179;
    922	0.009484;
    924	0.009644;
    926	0.009602;
    928	0.009363;
    930	0.008895;
    932	0.008275;
    934	0.007497;
    936	0.006648;
    938	0.005792;
    940	0.004947;
    942	0.004166;
    944	0.003467;
    946	0.002859;
    948	0.002337;
    950	0.001898;
    952	0.001544;
    954	0.001258;
    956	0.001022;
    958	0.000830;
    960	0.000678;
    962	0.000553;
    964	0.000451;
    966	0.000365;
    968	0.000298;
    970	0.000244;
    972	0.000204;
    974	0.000176;
    976	0.000163;
    978	0.000165;
    980	0.000185;
    982	0.000221;
    984	0.000278;
    986	0.000351;
    988	0.000448;
    990	0.000564;
    992	0.000698;
    994	0.000853;
    996	0.001027;
    998	0.001215;
    1000	0.001420;
    1002	0.001643;
    1004	0.001882;
    1006	0.002127;
    1008	0.002371;
    1010	0.002619;
    1012	0.002858;
    1014	0.003077;
    1016	0.003279;
    1018	0.003463;
    1020	0.003635;
    1022	0.003793;
    1024	0.003941;
    1026	0.004084;
    1028	0.004220;
    1030	0.004338;
    1032	0.004438;
    1034	0.004505;
    1036	0.004537;
    1038	0.004524;
    1040	0.004468;
    1042	0.004365;
    1044	0.004229;
    1046	0.004065;
    1048	0.003880;
    1050	0.003677;
    1052	0.003469;
    1054	0.003259;
    1056	0.003051;
    1058	0.002843] * 10;

vLambdaAA3 = [
    6.5000000e+002  1.1361272e+000;
    6.5050000e+002  1.1318779e+000;
    6.5100000e+002  1.1276285e+000;
    6.5150000e+002  1.1233792e+000;
    6.5200000e+002  1.1191298e+000;
    6.5250000e+002  1.1135125e+000;
    6.5300000e+002  1.1078952e+000;
    6.5350000e+002  1.1022779e+000;
    6.5400000e+002  1.0966605e+000;
    6.5450000e+002  1.0903251e+000;
    6.5500000e+002  1.0839896e+000;
    6.5550000e+002  1.0776542e+000;
    6.5600000e+002  1.0713187e+000;
    6.5650000e+002  1.0643820e+000;
    6.5700000e+002  1.0574453e+000;
    6.5750000e+002  1.0505086e+000;
    6.5800000e+002  1.0435719e+000;
    6.5850000e+002  1.0362062e+000;
    6.5900000e+002  1.0288404e+000;
    6.5950000e+002  1.0214747e+000;
    6.6000000e+002  1.0141090e+000;
    6.6050000e+002  1.0062588e+000;
    6.6100000e+002  9.9840857e-001;
    6.6150000e+002  9.9055837e-001;
    6.6200000e+002  9.8270816e-001;
    6.6250000e+002  9.7439221e-001;
    6.6300000e+002  9.6607626e-001;
    6.6350000e+002  9.5776031e-001;
    6.6400000e+002  9.4944435e-001;
    6.6450000e+002  9.4080158e-001;
    6.6500000e+002  9.3215880e-001;
    6.6550000e+002  9.2351603e-001;
    6.6600000e+002  9.1487325e-001;
    6.6650000e+002  9.0655165e-001;
    6.6700000e+002  8.9823004e-001;
    6.6750000e+002  8.8990843e-001;
    6.6800000e+002  8.8158682e-001;
    6.6850000e+002  8.7315553e-001;
    6.6900000e+002  8.6472424e-001;
    6.6950000e+002  8.5629295e-001;
    6.7000000e+002  8.4786166e-001;
    6.7050000e+002  8.3951725e-001;
    6.7100000e+002  8.3117284e-001;
    6.7150000e+002  8.2282843e-001;
    6.7200000e+002  8.1448402e-001;
    6.7250000e+002  8.0625998e-001;
    6.7300000e+002  7.9803594e-001;
    6.7350000e+002  7.8981191e-001;
    6.7400000e+002  7.8158787e-001;
    6.7450000e+002  7.7355802e-001;
    6.7500000e+002  7.6552817e-001;
    6.7550000e+002  7.5749832e-001;
    6.7600000e+002  7.4946847e-001;
    6.7650000e+002  7.4157127e-001;
    6.7700000e+002  7.3367407e-001;
    6.7750000e+002  7.2577687e-001;
    6.7800000e+002  7.1787968e-001;
    6.7850000e+002  7.1103726e-001;
    6.7900000e+002  7.0419484e-001;
    6.7950000e+002  6.9735242e-001;
    6.8000000e+002  6.9051001e-001;
    6.8050000e+002  6.8506908e-001;
    6.8100000e+002  6.7962815e-001;
    6.8150000e+002  6.7418722e-001;
    6.8200000e+002  6.6874629e-001;
    6.8250000e+002  6.6413673e-001;
    6.8300000e+002  6.5952716e-001;
    6.8350000e+002  6.5491759e-001;
    6.8400000e+002  6.5030802e-001;
    6.8450000e+002  6.4610502e-001;
    6.8500000e+002  6.4190202e-001;
    6.8550000e+002  6.3769903e-001;
    6.8600000e+002  6.3349603e-001;
    6.8650000e+002  6.2987997e-001;
    6.8700000e+002  6.2626392e-001;
    6.8750000e+002  6.2264786e-001;
    6.8800000e+002  6.1903181e-001;
    6.8850000e+002  6.1593488e-001;
    6.8900000e+002  6.1283796e-001;
    6.8950000e+002  6.0974103e-001;
    6.9000000e+002  6.0664411e-001;
    6.9050000e+002  6.0393052e-001;
    6.9100000e+002  6.0121692e-001;
    6.9150000e+002  5.9850333e-001;
    6.9200000e+002  5.9578974e-001;
    6.9250000e+002  5.9354479e-001;
    6.9300000e+002  5.9129984e-001;
    6.9350000e+002  5.8905489e-001;
    6.9400000e+002  5.8680994e-001;
    6.9450000e+002  5.8419281e-001;
    6.9500000e+002  5.8157569e-001;
    6.9550000e+002  5.7895857e-001;
    6.9600000e+002  5.7634144e-001;
    6.9650000e+002  5.7395588e-001;
    6.9700000e+002  5.7157032e-001;
    6.9750000e+002  5.6918475e-001;
    6.9800000e+002  5.6679919e-001;
    6.9850000e+002  5.6423313e-001;
    6.9900000e+002  5.6166706e-001;
    6.9950000e+002  5.5910100e-001;
    7.0000000e+002  5.5653494e-001;
    7.0050000e+002  5.5386633e-001;
    7.0100000e+002  5.5119773e-001;
    7.0150000e+002  5.4852912e-001;
    7.0200000e+002  5.4586052e-001;
    7.0250000e+002  5.4295036e-001;
    7.0300000e+002  5.4004020e-001;
    7.0350000e+002  5.3713004e-001;
    7.0400000e+002  5.3421989e-001;
    7.0450000e+002  5.3157177e-001;
    7.0500000e+002  5.2892366e-001;
    7.0550000e+002  5.2627555e-001;
    7.0600000e+002  5.2362744e-001;
    7.0650000e+002  5.2040945e-001;
    7.0700000e+002  5.1719147e-001;
    7.0750000e+002  5.1397349e-001;
    7.0800000e+002  5.1075551e-001;
    7.0850000e+002  5.0755727e-001;
    7.0900000e+002  5.0435903e-001;
    7.0950000e+002  5.0116079e-001;
    7.1000000e+002  4.9796255e-001;
    7.1050000e+002  4.9508362e-001;
    7.1100000e+002  4.9220470e-001;
    7.1150000e+002  4.8932577e-001;
    7.1200000e+002  4.8644684e-001;
    7.1250000e+002  4.8309329e-001;
    7.1300000e+002  4.7973974e-001;
    7.1350000e+002  4.7638620e-001;
    7.1400000e+002  4.7303265e-001;
    7.1450000e+002  4.6986524e-001;
    7.1500000e+002  4.6669783e-001;
    7.1550000e+002  4.6353042e-001;
    7.1600000e+002  4.6036302e-001;
    7.1650000e+002  4.5755399e-001;
    7.1700000e+002  4.5474496e-001;
    7.1750000e+002  4.5193593e-001;
    7.1800000e+002  4.4912691e-001;
    7.1850000e+002  4.4661044e-001;
    7.1900000e+002  4.4409397e-001;
    7.1950000e+002  4.4157750e-001;
    7.2000000e+002  4.3906103e-001;
    7.2050000e+002  4.3703350e-001;
    7.2100000e+002  4.3500597e-001;
    7.2150000e+002  4.3297844e-001;
    7.2200000e+002  4.3095091e-001;
    7.2250000e+002  4.2950659e-001;
    7.2300000e+002  4.2806227e-001;
    7.2350000e+002  4.2661795e-001;
    7.2400000e+002  4.2517362e-001;
    7.2450000e+002  4.2406847e-001;
    7.2500000e+002  4.2296331e-001;
    7.2550000e+002  4.2185816e-001;
    7.2600000e+002  4.2075300e-001;
    7.2650000e+002  4.1981891e-001;
    7.2700000e+002  4.1888482e-001;
    7.2750000e+002  4.1795073e-001;
    7.2800000e+002  4.1701664e-001;
    7.2850000e+002  4.1654428e-001;
    7.2900000e+002  4.1607191e-001;
    7.2950000e+002  4.1559955e-001;
    7.3000000e+002  4.1512718e-001;
    7.3050000e+002  4.1505277e-001;
    7.3100000e+002  4.1497836e-001;
    7.3150000e+002  4.1490395e-001;
    7.3200000e+002  4.1482954e-001;
    7.3250000e+002  4.1477623e-001;
    7.3300000e+002  4.1472291e-001;
    7.3350000e+002  4.1466960e-001;
    7.3400000e+002  4.1461628e-001;
    7.3450000e+002  4.1479630e-001;
    7.3500000e+002  4.1497632e-001;
    7.3550000e+002  4.1515633e-001;
    7.3600000e+002  4.1533635e-001;
    7.3650000e+002  4.1555474e-001;
    7.3700000e+002  4.1577314e-001;
    7.3750000e+002  4.1599153e-001;
    7.3800000e+002  4.1620993e-001;
    7.3850000e+002  4.1670986e-001;
    7.3900000e+002  4.1720980e-001;
    7.3950000e+002  4.1770974e-001;
    7.4000000e+002  4.1820967e-001;
    7.4050000e+002  4.1892740e-001;
    7.4100000e+002  4.1964513e-001;
    7.4150000e+002  4.2036286e-001;
    7.4200000e+002  4.2108058e-001;
    7.4250000e+002  4.2179731e-001;
    7.4300000e+002  4.2251404e-001;
    7.4350000e+002  4.2323076e-001;
    7.4400000e+002  4.2394749e-001;
    7.4450000e+002  4.2453814e-001;
    7.4500000e+002  4.2512878e-001;
    7.4550000e+002  4.2571943e-001;
    7.4600000e+002  4.2631007e-001;
    7.4650000e+002  4.2678948e-001;
    7.4700000e+002  4.2726889e-001;
    7.4750000e+002  4.2774830e-001;
    7.4800000e+002  4.2822770e-001;
    7.4850000e+002  4.2880242e-001;
    7.4900000e+002  4.2937714e-001;
    7.4950000e+002  4.2995185e-001;
    7.5000000e+002  4.3052657e-001;
    7.5050000e+002  4.3148348e-001;
    7.5100000e+002  4.3244039e-001;
    7.5150000e+002  4.3339730e-001;
    7.5200000e+002  4.3435422e-001;
    7.5250000e+002  4.3511742e-001;
    7.5300000e+002  4.3588062e-001;
    7.5350000e+002  4.3664382e-001;
    7.5400000e+002  4.3740702e-001;
    7.5450000e+002  4.3781744e-001;
    7.5500000e+002  4.3822787e-001;
    7.5550000e+002  4.3863830e-001;
    7.5600000e+002  4.3904872e-001;
    7.5650000e+002  4.3940898e-001;
    7.5700000e+002  4.3976923e-001;
    7.5750000e+002  4.4012949e-001;
    7.5800000e+002  4.4048975e-001;
    7.5850000e+002  4.4084169e-001;
    7.5900000e+002  4.4119364e-001;
    7.5950000e+002  4.4154558e-001;
    7.6000000e+002  4.4189753e-001;
    7.6050000e+002  4.4222139e-001;
    7.6100000e+002  4.4254525e-001;
    7.6150000e+002  4.4286911e-001;
    7.6200000e+002  4.4319298e-001;
    7.6250000e+002  4.4377194e-001;
    7.6300000e+002  4.4435090e-001;
    7.6350000e+002  4.4492986e-001;
    7.6400000e+002  4.4550882e-001;
    7.6450000e+002  4.4615044e-001;
    7.6500000e+002  4.4679205e-001;
    7.6550000e+002  4.4743367e-001;
    7.6600000e+002  4.4807529e-001;
    7.6650000e+002  4.4866327e-001;
    7.6700000e+002  4.4925126e-001;
    7.6750000e+002  4.4983925e-001;
    7.6800000e+002  4.5042724e-001;
    7.6850000e+002  4.5104584e-001;
    7.6900000e+002  4.5166445e-001;
    7.6950000e+002  4.5228305e-001;
    7.7000000e+002  4.5290166e-001;
    7.7050000e+002  4.5346397e-001;
    7.7100000e+002  4.5402629e-001;
    7.7150000e+002  4.5458860e-001;
    7.7200000e+002  4.5515091e-001;
    7.7250000e+002  4.5580540e-001;
    7.7300000e+002  4.5645989e-001;
    7.7350000e+002  4.5711438e-001;
    7.7400000e+002  4.5776888e-001;
    7.7450000e+002  4.5874658e-001;
    7.7500000e+002  4.5972429e-001;
    7.7550000e+002  4.6070200e-001;
    7.7600000e+002  4.6167971e-001;
    7.7650000e+002  4.6304014e-001;
    7.7700000e+002  4.6440057e-001;
    7.7750000e+002  4.6576100e-001;
    7.7800000e+002  4.6712143e-001;
    7.7850000e+002  4.6842946e-001;
    7.7900000e+002  4.6973749e-001;
    7.7950000e+002  4.7104552e-001;
    7.8000000e+002  4.7235355e-001;
    7.8050000e+002  4.7364174e-001;
    7.8100000e+002  4.7492993e-001;
    7.8150000e+002  4.7621812e-001;
    7.8200000e+002  4.7750631e-001;
    7.8250000e+002  4.7897505e-001;
    7.8300000e+002  4.8044380e-001;
    7.8350000e+002  4.8191254e-001;
    7.8400000e+002  4.8338128e-001;
    7.8450000e+002  4.8455794e-001;
    7.8500000e+002  4.8573459e-001;
    7.8550000e+002  4.8691125e-001;
    7.8600000e+002  4.8808791e-001;
    7.8650000e+002  4.8910580e-001;
    7.8700000e+002  4.9012369e-001;
    7.8750000e+002  4.9114158e-001;
    7.8800000e+002  4.9215948e-001;
    7.8850000e+002  4.9300490e-001;
    7.8900000e+002  4.9385033e-001;
    7.8950000e+002  4.9469576e-001;
    7.9000000e+002  4.9554119e-001;
    7.9050000e+002  4.9630072e-001;
    7.9100000e+002  4.9706025e-001;
    7.9150000e+002  4.9781978e-001;
    7.9200000e+002  4.9857931e-001;
    7.9250000e+002  5.0001031e-001;
    7.9300000e+002  5.0144130e-001;
    7.9350000e+002  5.0287230e-001;
    7.9400000e+002  5.0430330e-001;
    7.9450000e+002  5.0577552e-001;
    7.9500000e+002  5.0724773e-001;
    7.9550000e+002  5.0871995e-001;
    7.9600000e+002  5.1019217e-001;
    7.9650000e+002  5.1177102e-001;
    7.9700000e+002  5.1334987e-001;
    7.9750000e+002  5.1492872e-001;
    7.9800000e+002  5.1650758e-001;
    7.9850000e+002  5.1767295e-001;
    7.9900000e+002  5.1883832e-001;
    7.9950000e+002  5.2000370e-001;
    8.0000000e+002  5.2116907e-001;
    8.0050000e+002  5.2170964e-001;
    8.0100000e+002  5.2225020e-001;
    8.0150000e+002  5.2279077e-001;
    8.0200000e+002  5.2333133e-001;
    8.0250000e+002  5.2390635e-001;
    8.0300000e+002  5.2448137e-001;
    8.0350000e+002  5.2505639e-001;
    8.0400000e+002  5.2563141e-001;
    8.0450000e+002  5.2629161e-001;
    8.0500000e+002  5.2695181e-001;
    8.0550000e+002  5.2761202e-001;
    8.0600000e+002  5.2827222e-001;
    8.0650000e+002  5.2901213e-001;
    8.0700000e+002  5.2975205e-001;
    8.0750000e+002  5.3049196e-001;
    8.0800000e+002  5.3123187e-001;
    8.0850000e+002  5.3190100e-001;
    8.0900000e+002  5.3257012e-001;
    8.0950000e+002  5.3323925e-001;
    8.1000000e+002  5.3390837e-001;
    8.1050000e+002  5.3437521e-001;
    8.1100000e+002  5.3484206e-001;
    8.1150000e+002  5.3530890e-001;
    8.1200000e+002  5.3577574e-001;
    8.1250000e+002  5.3610282e-001;
    8.1300000e+002  5.3642990e-001;
    8.1350000e+002  5.3675698e-001;
    8.1400000e+002  5.3708406e-001;
    8.1450000e+002  5.3738179e-001;
    8.1500000e+002  5.3767952e-001;
    8.1550000e+002  5.3797726e-001;
    8.1600000e+002  5.3827499e-001;
    8.1650000e+002  5.3858777e-001;
    8.1700000e+002  5.3890055e-001;
    8.1750000e+002  5.3921333e-001;
    8.1800000e+002  5.3952611e-001;
    8.1850000e+002  5.3983715e-001;
    8.1900000e+002  5.4014818e-001;
    8.1950000e+002  5.4045922e-001;
    8.2000000e+002  5.4077026e-001;
    8.2050000e+002  5.4086522e-001;
    8.2100000e+002  5.4096019e-001;
    8.2150000e+002  5.4105515e-001;
    8.2200000e+002  5.4115011e-001;
    8.2250000e+002  5.4097464e-001;
    8.2300000e+002  5.4079916e-001;
    8.2350000e+002  5.4062369e-001;
    8.2400000e+002  5.4044822e-001;
    8.2450000e+002  5.4014545e-001;
    8.2500000e+002  5.3984269e-001;
    8.2550000e+002  5.3953992e-001;
    8.2600000e+002  5.3923716e-001;
    8.2650000e+002  5.3884421e-001;
    8.2700000e+002  5.3845126e-001;
    8.2750000e+002  5.3805832e-001;
    8.2800000e+002  5.3766537e-001;
    8.2850000e+002  5.3726601e-001;
    8.2900000e+002  5.3686664e-001;
    8.2950000e+002  5.3646728e-001;
    8.3000000e+002  5.3606792e-001;
    8.3050000e+002  5.3569046e-001;
    8.3100000e+002  5.3531300e-001;
    8.3150000e+002  5.3493554e-001;
    8.3200000e+002  5.3455808e-001;
    8.3250000e+002  5.3425944e-001;
    8.3300000e+002  5.3396080e-001;
    8.3350000e+002  5.3366216e-001;
    8.3400000e+002  5.3336352e-001;
    8.3450000e+002  5.3316411e-001;
    8.3500000e+002  5.3296470e-001;
    8.3550000e+002  5.3276529e-001;
    8.3600000e+002  5.3256588e-001;
    8.3650000e+002  5.3247892e-001;
    8.3700000e+002  5.3239197e-001;
    8.3750000e+002  5.3230501e-001;
    8.3800000e+002  5.3221806e-001;
    8.3850000e+002  5.3211789e-001;
    8.3900000e+002  5.3201773e-001;
    8.3950000e+002  5.3191756e-001;
    8.4000000e+002  5.3181739e-001;
    8.4050000e+002  5.3159895e-001;
    8.4100000e+002  5.3138050e-001;
    8.4150000e+002  5.3116205e-001;
    8.4200000e+002  5.3094361e-001;
    8.4250000e+002  5.3066563e-001;
    8.4300000e+002  5.3038766e-001;
    8.4350000e+002  5.3010968e-001;
    8.4400000e+002  5.2983171e-001;
    8.4450000e+002  5.2956491e-001;
    8.4500000e+002  5.2929812e-001;
    8.4550000e+002  5.2903132e-001;
    8.4600000e+002  5.2876453e-001;
    8.4650000e+002  5.2859686e-001;
    8.4700000e+002  5.2842920e-001;
    8.4750000e+002  5.2826153e-001;
    8.4800000e+002  5.2809386e-001;
    8.4850000e+002  5.2801195e-001;
    8.4900000e+002  5.2793003e-001;
    8.4950000e+002  5.2784811e-001;
    8.5000000e+002  5.2776619e-001;
    8.5050000e+002  5.2746834e-001;
    8.5100000e+002  5.2717049e-001;
    8.5150000e+002  5.2687263e-001;
    8.5200000e+002  5.2657478e-001;
    8.5250000e+002  5.2601940e-001;
    8.5300000e+002  5.2546403e-001;
    8.5350000e+002  5.2490865e-001;
    8.5400000e+002  5.2435328e-001;
    8.5450000e+002  5.2352321e-001;
    8.5500000e+002  5.2269315e-001;
    8.5550000e+002  5.2186309e-001;
    8.5600000e+002  5.2103302e-001;
    8.5650000e+002  5.2004711e-001;
    8.5700000e+002  5.1906120e-001;
    8.5750000e+002  5.1807528e-001;
    8.5800000e+002  5.1708937e-001;
    8.5850000e+002  5.1629274e-001;
    8.5900000e+002  5.1549610e-001;
    8.5950000e+002  5.1469947e-001;
    8.6000000e+002  5.1390283e-001;
    8.6050000e+002  5.1338676e-001;
    8.6100000e+002  5.1287070e-001;
    8.6150000e+002  5.1235463e-001;
    8.6200000e+002  5.1183857e-001;
    8.6250000e+002  5.1133847e-001;
    8.6300000e+002  5.1083837e-001;
    8.6350000e+002  5.1033827e-001;
    8.6400000e+002  5.0983817e-001;
    8.6450000e+002  5.0916645e-001;
    8.6500000e+002  5.0849474e-001;
    8.6550000e+002  5.0782302e-001;
    8.6600000e+002  5.0715131e-001;
    8.6650000e+002  5.0635557e-001;
    8.6700000e+002  5.0555984e-001;
    8.6750000e+002  5.0476411e-001;
    8.6800000e+002  5.0396838e-001;
    8.6850000e+002  5.0282658e-001;
    8.6900000e+002  5.0168478e-001;
    8.6950000e+002  5.0054299e-001;
    8.7000000e+002  4.9940119e-001;
    8.7050000e+002  4.9772793e-001;
    8.7100000e+002  4.9605467e-001;
    8.7150000e+002  4.9438141e-001;
    8.7200000e+002  4.9270815e-001;
    8.7250000e+002  4.9123397e-001;
    8.7300000e+002  4.8975980e-001;
    8.7350000e+002  4.8828562e-001;
    8.7400000e+002  4.8681145e-001;
    8.7450000e+002  4.8567142e-001;
    8.7500000e+002  4.8453139e-001;
    8.7550000e+002  4.8339137e-001;
    8.7600000e+002  4.8225134e-001;
    8.7650000e+002  4.8129036e-001;
    8.7700000e+002  4.8032938e-001;
    8.7750000e+002  4.7936841e-001;
    8.7800000e+002  4.7840743e-001;
    8.7850000e+002  4.7750085e-001;
    8.7900000e+002  4.7659428e-001;
    8.7950000e+002  4.7568770e-001;
    8.8000000e+002  4.7478112e-001;
    8.8050000e+002  4.7390575e-001;
    8.8100000e+002  4.7303039e-001;
    8.8150000e+002  4.7215502e-001;
    8.8200000e+002  4.7127965e-001;
    8.8250000e+002  4.7019206e-001;
    8.8300000e+002  4.6910447e-001;
    8.8350000e+002  4.6801688e-001;
    8.8400000e+002  4.6692929e-001;
    8.8450000e+002  4.6576740e-001;
    8.8500000e+002  4.6460552e-001;
    8.8550000e+002  4.6344363e-001;
    8.8600000e+002  4.6228175e-001;
    8.8650000e+002  4.6108543e-001;
    8.8700000e+002  4.5988910e-001;
    8.8750000e+002  4.5869278e-001;
    8.8800000e+002  4.5749646e-001;
    8.8850000e+002  4.5599046e-001;
    8.8900000e+002  4.5448446e-001;
    8.8950000e+002  4.5297846e-001;
    8.9000000e+002  4.5147246e-001;
    8.9050000e+002  4.5001098e-001;
    8.9100000e+002  4.4854950e-001;
    8.9150000e+002  4.4708802e-001;
    8.9200000e+002  4.4562653e-001;
    8.9250000e+002  4.4404932e-001;
    8.9300000e+002  4.4247210e-001;
    8.9350000e+002  4.4089488e-001;
    8.9400000e+002  4.3931766e-001;
    8.9450000e+002  4.3759003e-001;
    8.9500000e+002  4.3586239e-001;
    8.9550000e+002  4.3413476e-001;
    8.9600000e+002  4.3240713e-001;
    8.9650000e+002  4.3071228e-001;
    8.9700000e+002  4.2901743e-001;
    8.9750000e+002  4.2732258e-001;
    8.9800000e+002  4.2562773e-001;
    8.9850000e+002  4.2413598e-001;
    8.9900000e+002  4.2264422e-001;
    8.9950000e+002  4.2115247e-001;
    9.0000000e+002  4.1966072e-001;
    9.0050000e+002  4.1850323e-001;
    9.0100000e+002  4.1734574e-001;
    9.0150000e+002  4.1618825e-001;
    9.0200000e+002  4.1503076e-001;
    9.0250000e+002  4.1411717e-001;
    9.0300000e+002  4.1320358e-001;
    9.0350000e+002  4.1228999e-001;
    9.0400000e+002  4.1137640e-001;
    9.0450000e+002  4.1056765e-001;
    9.0500000e+002  4.0975889e-001;
    9.0550000e+002  4.0895014e-001;
    9.0600000e+002  4.0814138e-001;
    9.0650000e+002  4.0740348e-001;
    9.0700000e+002  4.0666558e-001;
    9.0750000e+002  4.0592768e-001;
    9.0800000e+002  4.0518978e-001;
    9.0850000e+002  4.0446823e-001;
    9.0900000e+002  4.0374669e-001;
    9.0950000e+002  4.0302514e-001;
    9.1000000e+002  4.0230360e-001;
    9.1050000e+002  4.0118053e-001;
    9.1100000e+002  4.0005746e-001;
    9.1150000e+002  3.9893439e-001;
    9.1200000e+002  3.9781132e-001;
    9.1250000e+002  3.9667644e-001;
    9.1300000e+002  3.9554156e-001;
    9.1350000e+002  3.9440668e-001;
    9.1400000e+002  3.9327180e-001;
    9.1450000e+002  3.9214808e-001;
    9.1500000e+002  3.9102437e-001;
    9.1550000e+002  3.8990065e-001;
    9.1600000e+002  3.8877694e-001;
    9.1650000e+002  3.8718648e-001;
    9.1700000e+002  3.8559602e-001;
    9.1750000e+002  3.8400556e-001;
    9.1800000e+002  3.8241511e-001;
    9.1850000e+002  3.8079458e-001;
    9.1900000e+002  3.7917406e-001;
    9.1950000e+002  3.7755354e-001;
    9.2000000e+002  3.7593302e-001;
    9.2050000e+002  3.7428388e-001;
    9.2100000e+002  3.7263474e-001;
    9.2150000e+002  3.7098560e-001;
    9.2200000e+002  3.6933647e-001;
    9.2250000e+002  3.6742515e-001;
    9.2300000e+002  3.6551383e-001;
    9.2350000e+002  3.6360251e-001;
    9.2400000e+002  3.6169119e-001;
    9.2450000e+002  3.5935763e-001;
    9.2500000e+002  3.5702408e-001;
    9.2550000e+002  3.5469052e-001;
    9.2600000e+002  3.5235696e-001;
    9.2650000e+002  3.5020949e-001;
    9.2700000e+002  3.4806201e-001;
    9.2750000e+002  3.4591454e-001;
    9.2800000e+002  3.4376706e-001;
    9.2850000e+002  3.4207196e-001;
    9.2900000e+002  3.4037685e-001;
    9.2950000e+002  3.3868174e-001;
    9.3000000e+002  3.3698664e-001;
    9.3050000e+002  3.3531468e-001;
    9.3100000e+002  3.3364273e-001;
    9.3150000e+002  3.3197077e-001;
    9.3200000e+002  3.3029882e-001;
    9.3250000e+002  3.2829975e-001;
    9.3300000e+002  3.2630069e-001;
    9.3350000e+002  3.2430162e-001;
    9.3400000e+002  3.2230256e-001;
    9.3450000e+002  3.2014129e-001;
    9.3500000e+002  3.1798002e-001;
    9.3550000e+002  3.1581875e-001;
    9.3600000e+002  3.1365747e-001;
    9.3650000e+002  3.1151386e-001;
    9.3700000e+002  3.0937026e-001;
    9.3750000e+002  3.0722665e-001;
    9.3800000e+002  3.0508304e-001;
    9.3850000e+002  3.0292138e-001;
    9.3900000e+002  3.0075971e-001;
    9.3950000e+002  2.9859805e-001;
    9.4000000e+002  2.9643639e-001;
    9.4050000e+002  2.9481181e-001;
    9.4100000e+002  2.9318724e-001;
    9.4150000e+002  2.9156266e-001;
    9.4200000e+002  2.8993809e-001;
    9.4250000e+002  2.8864886e-001;
    9.4300000e+002  2.8735962e-001;
    9.4350000e+002  2.8607039e-001;
    9.4400000e+002  2.8478116e-001;
    9.4450000e+002  2.8361146e-001;
    9.4500000e+002  2.8244176e-001;
    9.4550000e+002  2.8127206e-001;
    9.4600000e+002  2.8010236e-001;
    9.4650000e+002  2.7845904e-001;
    9.4700000e+002  2.7681573e-001;
    9.4750000e+002  2.7517241e-001;
    9.4800000e+002  2.7352909e-001;
    9.4850000e+002  2.7153475e-001;
    9.4900000e+002  2.6954041e-001;
    9.4950000e+002  2.6754607e-001;
    9.5000000e+002  2.6555173e-001];


exs = zeros(num_lambda, 5);

if(size(lambda,2) > size(lambda,1))
    lambda=lambda';
end

% HbO, Hb
ind=find(lambda>=250 & lambda<=1000);
exs(ind,1)=interp1(vLambdaHbOHb(:,1),vLambdaHbOHb(:,2),lambda(ind));
exs(ind,2)=interp1(vLambdaHbOHb(:,1),vLambdaHbOHb(:,3),lambda(ind));

% H2O
ind=find(lambda>=200 & lambda<=1000);
exs(ind,3)=interp1(vLambdaH2O(:,1),vLambdaH2O(:,2),lambda(ind));

% lipid
ind=find(lambda>=650 & lambda<=1058);
exs(ind,4)=interp1(vLambdaLipid(:,1),vLambdaLipid(:,2),lambda(ind));

% AA3
ind=find(lambda>=650 & lambda<=950);
exs(ind,5)=interp1(vLambdaAA3(:,1),vLambdaAA3(:,2),lambda(ind));


if nargout==2
    varargout{1}=Citation;
end

return
